 Zr Density=6.506 Thickness=0.2 microns
 Photon Energy (eV), Transmission
    10.000      0.60040E-12
    10.480      0.10471E-11
    10.960      0.17629E-11
    11.440      0.34363E-11
    11.920      0.74038E-11
    12.400      0.18629E-10
    12.880      0.51004E-10
    13.360      0.12946E-09
    13.840      0.45776E-09
    14.320      0.19757E-08
    14.800      0.73918E-08
    15.280      0.40337E-07
    15.760      0.25854E-06
    16.240      0.12911E-05
    16.720      0.52257E-05
    17.200      0.17707E-04
    17.680      0.51576E-04
    18.160      0.13205E-03
    18.640      0.30265E-03
    19.120      0.63069E-03
    19.600      0.12104E-02
    20.080      0.21627E-02
    20.560      0.36316E-02
    21.040      0.57765E-02
    21.520      0.87607E-02
    22.000      0.12656E-01
    22.480      0.16679E-01
    22.960      0.21127E-01
    23.440      0.26280E-01
    23.920      0.32158E-01
    24.400      0.38770E-01
    24.880      0.46113E-01
    25.360      0.50355E-01
    25.840      0.53568E-01
    26.320      0.45482E-01
    26.800      0.23530E-01
    27.280      0.53142E-03
    27.760      0.34870E-04
    28.240      0.12533E-04
    28.720      0.47080E-05
    29.200      0.22956E-05
    29.680      0.12031E-05
    30.160      0.61735E-06
    30.640      0.31017E-06
    31.120      0.15014E-06
    31.600      0.57418E-07
    32.080      0.13472E-07
    32.560      0.28555E-08
    33.040      0.54368E-09
    33.520      0.92482E-10
    34.000      0.13971E-10
    34.480      0.19570E-11
    34.960      0.54952E-12
    35.440      0.48379E-12
    35.920      0.42976E-12
    36.400      0.38213E-12
    36.880      0.46025E-12
    37.360      0.63740E-12
    37.840      0.88581E-12
    38.320      0.12212E-11
    38.800      0.16939E-11
    39.280      0.27726E-11
    39.760      0.48559E-11
    40.240      0.84495E-11
    40.720      0.14438E-10
    41.200      0.24592E-10
    41.680      0.44166E-10
    42.160      0.97841E-10
    42.640      0.21500E-09
    43.120      0.45607E-09
    43.600      0.93572E-09
    44.080      0.18604E-08
    44.560      0.42808E-08
    45.040      0.11072E-07
    45.520      0.31713E-07
    46.000      0.84650E-07
    46.480      0.21169E-06
    46.960      0.49842E-06
    47.440      0.11100E-05
    47.920      0.23476E-05
    48.400      0.47339E-05
    48.880      0.91314E-05
    49.360      0.16905E-04
    49.840      0.30124E-04
    50.320      0.51806E-04
    50.800      0.86203E-04
    51.280      0.13910E-03
    51.760      0.21814E-03
    52.240      0.33310E-03
    52.720      0.49615E-03
    53.200      0.72211E-03
    53.680      0.10298E-02
    54.160      0.14523E-02
    54.640      0.20249E-02
    55.120      0.27952E-02
    55.600      0.37846E-02
    56.080      0.50328E-02
    56.560      0.65809E-02
    57.040      0.84711E-02
    57.520      0.10746E-01
    58.000      0.13446E-01
    58.480      0.16611E-01
    58.960      0.20277E-01
    59.440      0.24476E-01
    59.920      0.29235E-01
    60.400      0.34579E-01
    60.880      0.40525E-01
    61.360      0.47085E-01
    61.840      0.54265E-01
    62.320      0.62064E-01
    62.800      0.70479E-01
    63.280      0.79499E-01
    63.760      0.89109E-01
    64.240      0.99290E-01
    64.720      0.11001    
    65.200      0.12126    
    65.680      0.13299    
    66.160      0.14518    
    66.640      0.15779    
    67.120      0.17078    
    67.600      0.18412    
    68.080      0.19777    
    68.560      0.21169    
    69.040      0.22468    
    69.520      0.23483    
    70.000      0.24496    
    70.480      0.25463    
    70.960      0.26433    
    71.440      0.27405    
    71.920      0.28379    
    72.400      0.29353    
    72.880      0.30326    
    73.360      0.31298    
    73.840      0.32268    
    74.320      0.33235    
    74.800      0.34199    
    75.280      0.35158    
    75.760      0.36112    
    76.240      0.37061    
    76.720      0.37865    
    77.200      0.38596    
    77.680      0.39282    
    78.160      0.39874    
    78.640      0.40461    
    79.120      0.41044    
    79.600      0.41622    
    80.080      0.42196    
    80.560      0.42764    
    81.040      0.43328    
    81.520      0.43638    
    82.000      0.43945    
    82.480      0.44247    
    82.960      0.44544    
    83.440      0.44839    
    83.920      0.45132    
    84.400      0.45422    
    84.880      0.45711    
    85.360      0.45997    
    85.840      0.46282    
    86.320      0.46564    
    86.800      0.46844    
    87.280      0.47123    
    87.760      0.47401    
    88.240      0.47678    
    88.720      0.47952    
    89.200      0.48224    
    89.680      0.48495    
    90.160      0.48763    
    90.640      0.49029    
    91.120      0.49294    
    91.600      0.49556    
    92.080      0.49817    
    92.560      0.50075    
    93.040      0.50332    
    93.520      0.50586    
    94.000      0.50836    
    94.480      0.51070    
    94.960      0.51302    
    95.440      0.51488    
    95.920      0.51548    
    96.400      0.51607    
    96.880      0.51667    
    97.360      0.51726    
    97.840      0.51784    
    98.320      0.51843    
    98.800      0.51901    
    99.280      0.51958    
    99.760      0.52016    
    100.24      0.52073    
    100.72      0.52130    
    101.20      0.52182    
    101.68      0.52219    
    102.16      0.52256    
    102.64      0.52285    
    103.12      0.52216    
    103.60      0.52148    
    104.08      0.52080    
    104.56      0.52012    
    105.04      0.51944    
    105.52      0.51876    
    106.00      0.51809    
    106.48      0.51742    
    106.96      0.51675    
    107.44      0.51609    
    107.92      0.51542    
    108.40      0.51476    
    108.88      0.51411    
    109.36      0.51345    
    109.84      0.51280    
    110.32      0.51215    
    110.80      0.51156    
    111.28      0.51101    
    111.76      0.51045    
    112.24      0.51000    
    112.72      0.50980    
    113.20      0.50960    
    113.68      0.50940    
    114.16      0.50921    
    114.64      0.50901    
    115.12      0.50881    
    115.60      0.50862    
    116.08      0.50843    
    116.56      0.50823    
    117.04      0.50804    
    117.52      0.50820    
    118.00      0.50849    
    118.48      0.50877    
    118.96      0.50907    
    119.44      0.50947    
    119.92      0.50986    
    120.40      0.51025    
    120.88      0.51065    
    121.36      0.51103    
    121.84      0.51142    
    122.32      0.51181    
    122.80      0.51219    
    123.28      0.51258    
    123.76      0.51296    
    124.24      0.51333    
    124.72      0.51371    
    125.20      0.51409    
    125.68      0.51446    
    126.16      0.51484    
    126.64      0.51521    
    127.12      0.51558    
    127.60      0.51595    
    128.08      0.51632    
    128.56      0.51668    
    129.04      0.51704    
    129.52      0.51741    
    130.00      0.51777    
    130.48      0.51813    
    130.96      0.51849    
    131.44      0.51884    
    131.92      0.51920    
    132.40      0.51953    
    132.88      0.51987    
    133.36      0.52021    
    133.84      0.52054    
    134.32      0.52083    
    134.80      0.52112    
    135.28      0.52140    
    135.76      0.52169    
    136.24      0.52197    
    136.72      0.52226    
    137.20      0.52254    
    137.68      0.52282    
    138.16      0.52310    
    138.64      0.52338    
    139.12      0.52366    
    139.60      0.52394    
    140.08      0.52421    
    140.56      0.52449    
    141.04      0.52476    
    141.52      0.52504    
    142.00      0.52531    
    142.48      0.52558    
    142.96      0.52585    
    143.44      0.52612    
    143.92      0.52639    
    144.40      0.52666    
    144.88      0.52692    
    145.36      0.52719    
    145.84      0.52745    
    146.32      0.52772    
    146.80      0.52798    
    147.28      0.52824    
    147.76      0.52850    
    148.24      0.52876    
    148.72      0.52902    
    149.20      0.52928    
    149.68      0.52954    
    150.16      0.52979    
    150.64      0.53005    
    151.12      0.53030    
    151.60      0.53056    
    152.08      0.53081    
    152.56      0.53106    
    153.04      0.53135    
    153.52      0.53169    
    154.00      0.53203    
    154.48      0.53236    
    154.96      0.53270    
    155.44      0.53309    
    155.92      0.53349    
    156.40      0.53389    
    156.88      0.53429    
    157.36      0.53468    
    157.84      0.53508    
    158.32      0.53547    
    158.80      0.53587    
    159.28      0.53626    
    159.76      0.53665    
    160.24      0.53704    
    160.72      0.53743    
    161.20      0.53781    
    161.68      0.53820    
    162.16      0.53858    
    162.64      0.53897    
    163.12      0.53935    
    163.60      0.53973    
    164.08      0.54011    
    164.56      0.54048    
    165.04      0.54086    
    165.52      0.54124    
    166.00      0.54161    
    166.48      0.54198    
    166.96      0.54235    
    167.44      0.54272    
    167.92      0.54309    
    168.40      0.54346    
    168.88      0.54383    
    169.36      0.54419    
    169.84      0.54456    
    170.32      0.54492    
    170.80      0.54528    
    171.28      0.54564    
    171.76      0.54600    
    172.24      0.54636    
    172.72      0.54672    
    173.20      0.54707    
    173.68      0.54743    
    174.16      0.54778    
    174.64      0.54813    
    175.12      0.54849    
    175.60      0.54884    
    176.08      0.54919    
    176.56      0.54265    
    177.04      0.53053    
    177.52      0.51827    
    178.00      0.50590    
    178.48      0.49342    
    178.96      0.48568    
    179.44      0.48571    
    179.92      0.48574    
    180.40      0.48578    
    180.88      0.48581    
    181.36      0.48584    
    181.84      0.48587    
    182.32      0.48590    
    182.80      0.48593    
    183.28      0.48596    
    183.76      0.48599    
    184.24      0.48453    
    184.72      0.47815    
    185.20      0.47175    
    185.68      0.46534    
    186.16      0.45892    
    186.64      0.45249    
    187.12      0.44552    
    187.60      0.43807    
    188.08      0.43062    
    188.56      0.42316    
    189.04      0.41570    
    189.52      0.40824    
    190.00      0.40145    
    190.48      0.39489    
    190.96      0.38833    
    191.44      0.38179    
    191.92      0.37526    
    192.40      0.36874    
    192.88      0.36449    
    193.36      0.36056    
    193.84      0.35663    
    194.32      0.35272    
    194.80      0.34882    
    195.28      0.34493    
    195.76      0.34105    
    196.24      0.33719    
    196.72      0.33333    
    197.20      0.32949    
    197.68      0.32567    
    198.16      0.32186    
    198.64      0.31181    
    199.12      0.30097    
    199.60      0.29022    
    200.08      0.27957    
    200.56      0.26904    
    201.04      0.25862    
    201.52      0.24770    
    202.00      0.23672    
    202.48      0.22592    
    202.96      0.21531    
    203.44      0.20490    
    203.92      0.19471    
    204.40      0.18474    
    204.88      0.17502    
    205.36      0.16554    
    205.84      0.15633    
    206.32      0.14737    
    206.80      0.13869    
    207.28      0.13085    
    207.76      0.12553    
    208.24      0.12032    
    208.72      0.11525    
    209.20      0.11030    
    209.68      0.10549    
    210.16      0.10080    
    210.64      0.97562E-01
    211.12      0.94748E-01
    211.60      0.91986E-01
    212.08      0.89279E-01
    212.56      0.86624E-01
    213.04      0.84023E-01
    213.52      0.81909E-01
    214.00      0.80966E-01
    214.48      0.80031E-01
    214.96      0.79104E-01
    215.44      0.78186E-01
    215.92      0.77277E-01
    216.40      0.76377E-01
    216.88      0.75485E-01
    217.36      0.74601E-01
    217.84      0.73726E-01
    218.32      0.72859E-01
    218.80      0.72000E-01
    219.28      0.71149E-01
    219.76      0.70307E-01
    220.24      0.69472E-01
    220.72      0.68645E-01
    221.20      0.67826E-01
    221.68      0.67015E-01
    222.16      0.66212E-01
    222.64      0.65417E-01
    223.12      0.64596E-01
    223.60      0.63611E-01
    224.08      0.62639E-01
    224.56      0.61678E-01
    225.04      0.60728E-01
    225.52      0.59790E-01
    226.00      0.58863E-01
    226.48      0.57913E-01
    226.96      0.56876E-01
    227.44      0.55853E-01
    227.92      0.54844E-01
    228.40      0.53849E-01
    228.88      0.52869E-01
    229.36      0.51902E-01
    229.84      0.50949E-01
    230.32      0.50010E-01
    230.80      0.49085E-01
    231.28      0.48172E-01
    231.76      0.47274E-01
    232.24      0.46388E-01
    232.72      0.45515E-01
    233.20      0.44635E-01
    233.68      0.43647E-01
    234.16      0.42677E-01
    234.64      0.41723E-01
    235.12      0.40786E-01
    235.60      0.39865E-01
    236.08      0.38960E-01
    236.56      0.38072E-01
    237.04      0.37159E-01
    237.52      0.36259E-01
    238.00      0.35378E-01
    238.48      0.34512E-01
    238.96      0.33664E-01
    239.44      0.32832E-01
    239.92      0.32016E-01
    240.40      0.31485E-01
    240.88      0.31135E-01
    241.36      0.30788E-01
    241.84      0.30445E-01
    242.32      0.30106E-01
    242.80      0.29770E-01
    243.28      0.29437E-01
    243.76      0.29154E-01
    244.24      0.29097E-01
    244.72      0.29040E-01
    245.20      0.28984E-01
    245.68      0.28927E-01
    246.16      0.28871E-01
    246.64      0.28815E-01
    247.12      0.28759E-01
    247.60      0.28703E-01
    248.08      0.28647E-01
    248.56      0.28592E-01
    249.04      0.28537E-01
    249.52      0.28481E-01
    250.00      0.28426E-01
